Timestamp (us),X (a.u.),Y (a.u.),Z (a.u.)
7063469034,-0.828475,-0.150290,-0.849381
7063519399,-0.819192,-0.141172,-0.859714
7063569767,-0.828363,-0.141465,-0.869784
7063620129,-0.837624,-0.132042,-0.849630
7063670498,-0.828358,-0.132094,-0.859606
7063720875,-0.828336,-0.113553,-0.849786
7063771250,-0.837507,-0.113846,-0.859856
7063821623,-0.837576,-0.132215,-0.859654
7063871998,-0.837533,-0.123024,-0.859627
7063922362,-0.837554,-0.113673,-0.849832
7063972719,-0.828384,-0.113380,-0.839760
7064023080,-0.855908,-0.114061,-0.859440
7064073443,-0.846837,-0.122791,-0.839498
7064123806,-0.865252,-0.113648,-0.829162
7064174179,-0.874641,-0.141163,-0.819116
7064224546,-0.837736,-0.140867,-0.829223
7064274916,-0.837490,-0.104675,-0.860214
7064325282,-0.837446,-0.095484,-0.860187
7064375650,-0.828055,-0.068177,-0.880876
7064426020,-0.827930,-0.049977,-0.890966
7064476392,-0.837355,-0.086468,-0.870182
7064526765,-0.855817,-0.077151,-0.849823
7064577136,-0.865017,-0.077259,-0.849616
7064627503,-0.855787,-0.077337,-0.860100
7064677873,-0.855821,-0.067788,-0.839774
7064728241,-0.855865,-0.076978,-0.839798
7064778612,-0.855851,-0.067603,-0.829501
7064828978,-0.855851,-0.086335,-0.849722
7064879340,-0.865074,-0.077091,-0.839718
7064929706,-0.855856,-0.076972,-0.839673
7064980073,-0.855821,-0.067788,-0.839774
7065030439,-0.855835,-0.077163,-0.850076
7065080811,-0.837334,-0.067925,-0.860362
7065131179,-0.818798,-0.049504,-0.870747
7065181556,-0.781660,-0.031760,-0.932168
7065231935,-0.725964,0.022948,-0.994155
7065282301,-0.633335,0.124390,-1.036670
7065332674,-0.522260,0.244607,-1.069557
7065383046,-0.420533,0.337337,-1.091594
7065433421,-0.356033,0.347319,-1.092419
7065483795,-0.337508,0.365732,-1.102771
7065534169,-0.346613,0.393170,-1.102994
7065584535,-0.383497,0.411623,-1.072426
7065634905,-0.420295,0.410992,-1.082414
7065685269,-0.448237,0.337353,-1.070897
7065735638,-0.485110,0.327717,-1.070631
7065786010,-0.503563,0.318306,-1.070369
7065836383,-0.512853,0.327915,-1.039942
7065886763,-0.540424,0.374033,-1.009758
7065937134,-0.595639,0.457265,-0.939139
7065987503,-0.669393,0.475437,-0.897968
7066037872,-0.743550,0.401964,-0.846025
7066088239,-0.817688,0.328477,-0.793700
7066138600,-0.919463,0.301296,-0.701375
7066188970,-0.993664,0.228168,-0.628666
7066239333,-1.012116,0.274761,-0.578351
7066289707,-1.049334,0.201372,-0.546684
7066340078,-1.077159,0.211293,-0.485647
7066390437,-1.105198,0.231477,-0.363869
7066440805,-1.142257,0.241462,-0.292546
7066491168,-1.142559,0.224172,-0.231446
7066541556,-1.161319,0.206834,-0.160036
7066591937,-1.170821,0.170703,-0.118953
7066642318,-1.180173,0.143217,-0.108419
7066692704,-1.189599,0.106727,-0.087635
7066743083,-1.180657,0.061279,-0.066923
7066793466,-1.180683,0.033367,-0.086922
7066843852,-1.189651,0.013448,-0.167847
7066894245,-1.189221,0.039565,-0.249319
7066944642,-1.160932,0.102399,-0.351656
7066995036,-1.105142,0.137839,-0.464297
7067045427,-1.076961,0.201031,-0.546443
7067095819,-1.021235,0.246197,-0.628722
7067196615,-0.993591,0.237173,-0.638917
7067247014,-1.030995,0.117865,-0.606831
7067297410,-1.040577,-0.002000,-0.625734
7067347808,-1.013487,-0.186058,-0.664550
7067398205,-0.940282,-0.351179,-0.703970
7067448601,-0.875950,-0.424587,-0.744433
7067498999,-0.801953,-0.415727,-0.815990
7067549393,-0.755805,-0.415723,-0.847089
7067599791,-0.737274,-0.406670,-0.867653
7067650184,-0.709420,-0.379304,-0.898517
7067700584,-0.700004,-0.333461,-0.909389
7067750979,-0.690579,-0.296970,-0.930176
7067801368,-0.690367,-0.251229,-0.940833
7067851759,-0.680763,-0.178181,-0.972176
7067902155,-0.643679,-0.122801,-0.983256
7067952552,-0.652498,-0.031247,-0.994191
7068002938,-0.652251,0.023678,-1.004948
7068053338,-0.652118,0.060410,-1.005501
7068103732,-0.652025,0.125420,-0.965463
7068154120,-0.661018,0.161683,-0.986086
7068204510,-0.660944,0.180052,-0.986143
7068254900,-0.651718,0.208076,-0.966516
7068305292,-0.642366,0.244926,-0.966859
7068355681,-0.651558,0.216721,-0.996776
7068406075,-0.624143,0.161958,-0.996557
7068456464,-0.615142,0.097601,-1.006228
7068506854,-0.614999,0.134340,-1.006484
7068557240,-0.587028,0.226521,-1.007886
7068607627,-0.586782,0.290809,-1.008445
7068658013,-0.568125,0.364688,-0.999266
7068708409,-0.521837,0.429544,-1.000376
7068758806,-0.503257,0.503782,-0.970898
7068809201,-0.475431,0.577962,-0.951789
7068859582,-0.466135,0.643083,-0.911974
7068909979,-0.475319,0.670891,-0.892026
7068960373,-0.456820,0.670740,-0.912224
7069010769,-0.466199,0.615343,-0.921686
7069061168,-0.475508,0.578313,-0.931350
7069111564,-0.521645,0.522102,-0.960790
7069161961,-0.558647,0.457001,-0.980059
7069212359,-0.614292,0.374022,-0.958367
7069262749,-0.651410,0.300098,-0.957377
7069313132,-0.716286,0.217183,-0.925040
7069363521,-0.753448,0.152801,-0.903851
7069413910,-0.790720,0.070229,-0.872304
7069464297,-0.818915,-0.048965,-0.840298
7069514702,-0.828574,-0.149737,-0.818684
7069565096,-0.810693,-0.268549,-0.797352
7069615495,-0.801816,-0.341750,-0.786709
7069665896,-0.783535,-0.378260,-0.786464
7069716287,-0.746870,-0.423728,-0.786280
7069766686,-0.728367,-0.423847,-0.806625
7069817088,-0.728339,-0.414675,-0.806847
7069867495,-0.719062,-0.405569,-0.817303
7069917886,-0.737367,-0.387595,-0.827375
7069968268,-0.746580,-0.378345,-0.817243
7070018648,-0.755725,-0.350726,-0.807314
7070069027,-0.783191,-0.314530,-0.817875
7070119400,-0.792259,-0.268530,-0.808024
7070169773,-0.801356,-0.259819,-0.828353
7070220146,-0.810515,-0.231993,-0.807906
7070270526,-0.810562,-0.250559,-0.818098
7070320906,-0.829110,-0.240892,-0.777544
7070371279,-0.856981,-0.286786,-0.756376
7070421657,-0.875582,-0.314207,-0.735606
7070472034,-0.903407,-0.332389,-0.704811
7070522415,-0.912839,-0.331413,-0.643710
7070572796,-0.931563,-0.367671,-0.602626
7070623178,-0.941033,-0.366515,-0.531386
7070673548,-0.950247,-0.357265,-0.521255
7070723924,-0.959608,-0.366024,-0.490616
7070774299,-0.959685,-0.365664,-0.470311
7070824670,-0.950324,-0.356905,-0.500950
7070875046,-0.959348,-0.339189,-0.531529
7070925422,-0.968450,-0.321114,-0.541804
7070975806,-0.977466,-0.294024,-0.562247
7071026195,-0.977285,-0.266831,-0.582852
7071076573,-0.958413,-0.203408,-0.644822
7071177331,-0.911476,-0.085412,-0.758120
7071227709,-0.874249,-0.068021,-0.839739
7071278084,-0.809622,-0.030678,-0.851111
7071328462,-0.809177,0.051451,-0.882221
7071378842,-0.762978,0.041933,-0.933415
7071429218,-0.707545,0.069805,-0.954648
7071479595,-0.660964,0.180049,-0.986726
7071529980,-0.605393,0.254028,-0.998320
7071580359,-0.568166,0.355509,-0.999460
7071630726,-0.531050,0.438794,-0.990247
7071681097,-0.475556,0.503781,-0.991876
7071731475,-0.429335,0.550292,-0.993222
7071781850,-0.383138,0.568850,-1.013696
7071832219,-0.346266,0.578481,-1.013970
7071882590,-0.337085,0.560053,-1.024151
7071932966,-0.337111,0.522764,-1.053898
7071983345,-0.364942,0.457959,-1.063256
7072033725,-0.411193,0.392924,-1.072456
7072084104,-0.448379,0.300624,-1.071122
7072134484,-0.485557,0.198961,-1.079524
7072184869,-0.513683,0.098133,-1.047716
7072235250,-0.532449,-0.003310,-1.056905
7072285637,-0.569650,-0.067523,-1.025565
7072336025,-0.597701,-0.149972,-0.993652
7072386411,-0.625758,-0.232433,-0.962043
7072436786,-0.626040,-0.287170,-0.940991
7072487165,-0.635475,-0.333058,-0.930668
7072537532,-0.608084,-0.387622,-0.919873
7072587910,-0.599190,-0.460804,-0.908991
7072638294,-0.562669,-0.524266,-0.888167
7072688675,-0.553571,-0.542356,-0.878025
7072739054,-0.526016,-0.551020,-0.868012
7072789432,-0.544026,-0.506389,-0.929134
7072839810,-0.552957,-0.442406,-0.940053
7072890185,-0.598770,-0.369331,-0.930447
7072990925,-0.718397,-0.277665,-0.858824
7073041303,-0.782609,-0.195651,-0.849404
7073091680,-0.810362,-0.176725,-0.798602
7073142066,-0.810327,-0.205013,-0.839159
7073192441,-0.800989,-0.196058,-0.859395
7073242817,-0.782682,-0.204656,-0.839150
7073293188,-0.810597,-0.259743,-0.817996
7073343571,-0.838584,-0.305097,-0.766372
7073393948,-0.866338,-0.304909,-0.735788
7073444322,-0.912521,-0.286220,-0.684929
7073494692,-0.930832,-0.268258,-0.695125
7073545061,-0.912227,-0.250201,-0.725950
7073595438,-0.893405,-0.195764,-0.777488
7073645814,-0.856238,-0.150106,-0.818931
7073696190,-0.810003,-0.131708,-0.849997
7073746569,-0.772967,-0.122781,-0.890903
7073796938,-0.763768,-0.132045,-0.901303
7073847307,-0.745629,-0.195932,-0.890600
7073897677,-0.727404,-0.250794,-0.889889
7073948051,-0.709165,-0.296499,-0.889676
7073998426,-0.690992,-0.351200,-0.879075
7074048797,-0.700242,-0.360509,-0.879025
7074099171,-0.727846,-0.332936,-0.858776
7074149547,-0.764624,-0.296292,-0.838549
7074199919,-0.782968,-0.240890,-0.808770
7074250294,-0.838177,-0.194895,-0.767701
7074300667,-0.884144,-0.158560,-0.757778
7074351041,-0.902395,-0.122029,-0.757682
7074401415,-0.902418,-0.093944,-0.727642
7074451790,-0.920750,-0.075993,-0.738057
7074502171,-0.883759,-0.066893,-0.768946
7074552543,-0.883637,-0.058062,-0.789240
7074602918,-0.865113,-0.030281,-0.789704
7074653285,-0.818944,-0.039616,-0.830621
7074703657,-0.818879,-0.030616,-0.841001
7074754034,-0.818776,-0.030961,-0.860928
7074804414,-0.818801,-0.012243,-0.841079
7074854792,-0.800370,-0.021375,-0.851166
7074905162,-0.800358,-0.030734,-0.861089
7074955535,-0.809428,0.005889,-0.861413
7075005902,-0.790944,0.015117,-0.871956
7075056281,-0.800258,0.006182,-0.851343
7075106647,-0.800072,0.024012,-0.881998
7075157020,-0.781661,0.024235,-0.882290
7075207392,-0.790871,0.042853,-0.861979
7075257764,-0.772332,0.033177,-0.902642
7075308137,-0.781549,0.051791,-0.882462
7075358517,-0.781580,0.033243,-0.892411
7075408895,-0.781618,0.033423,-0.882260
7075459268,-0.790932,0.024488,-0.861648
7075509643,-0.772332,0.033177,-0.902642
7075560022,-0.800010,0.042377,-0.882331
7075610397,-0.790727,0.051495,-0.892666
7075660773,-0.790805,0.051854,-0.872361
7075711153,-0.800003,0.042380,-0.882200
7075761530,-0.799968,0.051564,-0.882302
